GCD Test
Bias: 5000.000000
IV_W30_1030_Chip20
Date/Time: 4/4/2019 2:26:13 PM
Sensor Name: W30_1030_Chip20
Type: P
Annealing Status: Irradiated
Environment: -20C
Tester: Vuong

Time Delay per Ramp Step (s): 0.500

CV Time Delay per Measurement (s) :0.500

AC Voltage (V): 0.500

Current Number of measurements per voltage: 4.000

IV Time Delay per Measurement (s) :0.500


BiasVoltage	Total Current_Avg	Total Current_0	Total Current_1	Total Current_2	Total Current_3	Bias Current_Avg	Bias Current_0	Bias Current_1	Bias Current_2	Bias Current_3	Temperature	Air_Temp	Humidity	Dewpoint	
   -1.0000	-3.4030E-7	-3.4040E-7	-3.4020E-7	-3.4020E-7	-3.4040E-7	-3.438070E-7	-3.434822E-7	-3.439564E-7	-3.439395E-7	-3.438498E-7	  -19.9957	    9.6392	    0.2312	  -56.6249	
   -2.0000	-4.6122E-7	-4.6170E-7	-4.6150E-7	-4.6100E-7	-4.6070E-7	-4.619140E-7	-4.616111E-7	-4.624564E-7	-4.623985E-7	-4.611898E-7	  -20.0033	    9.6151	    0.2236	  -56.9047	
   -3.0000	-5.4083E-7	-5.4030E-7	-5.4120E-7	-5.4220E-7	-5.3960E-7	-5.403764E-7	-5.415855E-7	-5.392898E-7	-5.402030E-7	-5.404272E-7	  -20.0109	    9.6033	    0.2233	  -56.9224	
   -4.0000	-6.0485E-7	-6.0580E-7	-6.0380E-7	-6.0470E-7	-6.0510E-7	-6.050923E-7	-6.051721E-7	-6.045576E-7	-6.050736E-7	-6.055660E-7	  -19.9880	    9.6605	    0.2249	  -56.8353	
   -5.0000	-6.6135E-7	-6.6140E-7	-6.6240E-7	-6.6050E-7	-6.6110E-7	-6.610019E-7	-6.604828E-7	-6.607592E-7	-6.615707E-7	-6.611950E-7	  -20.0033	    9.6176	    0.2226	  -56.9373	
   -6.0000	-7.1070E-7	-7.0880E-7	-7.1180E-7	-7.1300E-7	-7.0920E-7	-7.109059E-7	-7.103933E-7	-7.117594E-7	-7.105490E-7	-7.109218E-7	  -19.9982	    9.6271	    0.2207	  -57.0005	
   -7.0000	-7.5742E-7	-7.5500E-7	-7.5810E-7	-7.5950E-7	-7.5710E-7	-7.604116E-7	-7.628341E-7	-7.607886E-7	-7.596075E-7	-7.584164E-7	  -19.9880	    9.6235	    0.2160	  -57.1755	
   -8.0000	-8.0052E-7	-8.0000E-7	-8.0040E-7	-7.9960E-7	-8.0210E-7	-8.011302E-7	-8.006949E-7	-8.024455E-7	-7.990328E-7	-8.023476E-7	  -20.0033	    9.6416	    0.2217	  -56.9585	
   -9.0000	-8.4008E-7	-8.4010E-7	-8.3840E-7	-8.4100E-7	-8.4080E-7	-8.401184E-7	-8.444744E-7	-8.388216E-7	-8.369297E-7	-8.402478E-7	  -19.9957	    9.6170	    0.2217	  -56.9717	
  -10.0000	-8.7750E-7	-8.7640E-7	-8.7820E-7	-8.7750E-7	-8.7790E-7	-8.773752E-7	-8.796529E-7	-8.777421E-7	-8.765115E-7	-8.755944E-7	  -20.0059	    9.6159	    0.2141	  -57.2497	
  -15.0000	-1.0433E-6	-1.0430E-6	-1.0430E-6	-1.0440E-6	-1.0430E-6	-1.045557E-6	-1.045292E-6	-1.045153E-6	-1.044414E-6	-1.047371E-6	  -19.9982	    9.6327	    0.2245	  -56.8615	
  -20.0000	-1.1803E-6	-1.1800E-6	-1.1790E-6	-1.1810E-6	-1.1810E-6	-1.182911E-6	-1.182595E-6	-1.182641E-6	-1.181478E-6	-1.184930E-6	  -19.9982	    9.5715	    0.2128	  -57.3205	
  -25.0000	-1.3027E-6	-1.3020E-6	-1.3040E-6	-1.3030E-6	-1.3020E-6	-1.307580E-6	-1.307862E-6	-1.309670E-6	-1.309160E-6	-1.303630E-6	  -20.0059	    9.6086	    0.2201	  -57.0333	
  -30.0000	-1.4147E-6	-1.4170E-6	-1.4140E-6	-1.4120E-6	-1.4160E-6	-1.420167E-6	-1.420809E-6	-1.412475E-6	-1.425451E-6	-1.421932E-6	  -19.9982	    9.6140	    0.2331	  -56.5730	
  -35.0000	-1.5185E-6	-1.5230E-6	-1.5220E-6	-1.5150E-6	-1.5140E-6	-1.521065E-6	-1.515802E-6	-1.520098E-6	-1.522100E-6	-1.526260E-6	  -19.9906	    9.6019	    0.2106	  -57.3873	
  -40.0000	-1.6127E-6	-1.6120E-6	-1.6120E-6	-1.6150E-6	-1.6120E-6	-1.606434E-6	-1.605844E-6	-1.603439E-6	-1.609361E-6	-1.607092E-6	  -19.9982	    9.6229	    0.2113	  -57.3523	
  -45.0000	-1.7005E-6	-1.7000E-6	-1.7040E-6	-1.6980E-6	-1.7000E-6	-1.702028E-6	-1.699343E-6	-1.700054E-6	-1.706684E-6	-1.702031E-6	  -20.0135	    9.5931	    0.2141	  -57.2619	
  -50.0000	-1.7837E-6	-1.7830E-6	-1.7840E-6	-1.7850E-6	-1.7830E-6	-1.781251E-6	-1.779957E-6	-1.777778E-6	-1.781599E-6	-1.785670E-6	  -20.0135	    9.5785	    0.2226	  -56.9583	
  -55.0000	-1.8675E-6	-1.8680E-6	-1.8720E-6	-1.8640E-6	-1.8660E-6	-1.869137E-6	-1.868554E-6	-1.871381E-6	-1.865226E-6	-1.871388E-6	  -20.0059	    9.5501	    0.2223	  -56.9848	
  -60.0000	-1.9453E-6	-1.9460E-6	-1.9520E-6	-1.9440E-6	-1.9390E-6	-1.937533E-6	-1.933251E-6	-1.936943E-6	-1.943984E-6	-1.935954E-6	  -19.9957	    9.5823	    0.2192	  -57.0818	
  -65.0000	-2.0202E-6	-2.0180E-6	-2.0240E-6	-2.0200E-6	-2.0190E-6	-2.011088E-6	-2.008969E-6	-2.012245E-6	-2.014038E-6	-2.009102E-6	  -19.9982	    9.5391	    0.2214	  -57.0248	
  -70.0000	-2.0942E-6	-2.0960E-6	-2.0940E-6	-2.0920E-6	-2.0950E-6	-2.080657E-6	-2.083651E-6	-2.076547E-6	-2.079684E-6	-2.082746E-6	  -20.0059	    9.5368	    0.2128	  -57.3390	
  -75.0000	-2.1635E-6	-2.1660E-6	-2.1660E-6	-2.1650E-6	-2.1570E-6	-2.146739E-6	-2.148699E-6	-2.145126E-6	-2.147419E-6	-2.145712E-6	  -20.0186	    9.5487	    0.2217	  -57.0083	
  -80.0000	-2.2338E-6	-2.2280E-6	-2.2390E-6	-2.2340E-6	-2.2340E-6	-2.208334E-6	-2.205328E-6	-2.206530E-6	-2.212829E-6	-2.208649E-6	  -19.9880	    9.5659	    0.2128	  -57.3235	
  -85.0000	-2.3022E-6	-2.3020E-6	-2.3080E-6	-2.2980E-6	-2.3010E-6	-2.269310E-6	-2.265319E-6	-2.271322E-6	-2.271435E-6	-2.269166E-6	  -19.9906	    9.4773	    0.2179	  -57.1841	
  -90.0000	-2.3673E-6	-2.3700E-6	-2.3660E-6	-2.3650E-6	-2.3680E-6	-2.325125E-6	-2.327306E-6	-2.324421E-6	-2.321387E-6	-2.327385E-6	  -19.9931	    9.4773	    0.2135	  -57.3473	
  -95.0000	-2.4255E-6	-2.4280E-6	-2.4220E-6	-2.4250E-6	-2.4270E-6	-2.375676E-6	-2.371730E-6	-2.377973E-6	-2.373903E-6	-2.379099E-6	  -19.9982	    9.4586	    0.2176	  -57.2056	
 -100.0000	-2.4910E-6	-2.4920E-6	-2.4900E-6	-2.4910E-6	-2.4910E-6	-2.435323E-6	-2.432271E-6	-2.436427E-6	-2.441666E-6	-2.430928E-6	  -19.9982	    9.4637	    0.2157	  -57.2726	
 -110.0000	-2.6143E-6	-2.6190E-6	-2.6100E-6	-2.6120E-6	-2.6160E-6	-2.532497E-6	-2.531362E-6	-2.527951E-6	-2.532119E-6	-2.538558E-6	  -20.0008	    9.5314	    0.2132	  -57.3302	
 -120.0000	-2.7365E-6	-2.7380E-6	-2.7300E-6	-2.7370E-6	-2.7410E-6	-2.602805E-6	-2.600436E-6	-2.606553E-6	-2.598748E-6	-2.605483E-6	  -19.9880	    9.5178	    0.2116	  -57.3965	
 -130.0000	-2.8573E-6	-2.8610E-6	-2.8590E-6	-2.8550E-6	-2.8540E-6	-2.666129E-6	-2.670108E-6	-2.661364E-6	-2.661330E-6	-2.671714E-6	  -19.9957	    9.4936	    0.2094	  -57.4929	
 -140.0000	-2.9798E-6	-2.9780E-6	-2.9780E-6	-2.9840E-6	-2.9790E-6	-2.734275E-6	-2.739772E-6	-2.727495E-6	-2.732276E-6	-2.737557E-6	  -20.0008	    9.4825	    0.1977	  -57.9538	
 -150.0000	-3.0978E-6	-3.0950E-6	-3.0990E-6	-3.0950E-6	-3.1020E-6	-2.790640E-6	-2.797747E-6	-2.787112E-6	-2.798264E-6	-2.779436E-6	  -20.0135	    9.4825	    0.2106	  -57.4511	
 -160.0000	-3.2103E-6	-3.2100E-6	-3.2090E-6	-3.2060E-6	-3.2160E-6	-2.850949E-6	-2.851721E-6	-2.855496E-6	-2.847982E-6	-2.848598E-6	  -20.0211	    9.4654	    0.2068	  -57.6043	
 -170.0000	-3.3317E-6	-3.3300E-6	-3.3290E-6	-3.3320E-6	-3.3360E-6	-2.923061E-6	-2.922395E-6	-2.920706E-6	-2.921090E-6	-2.928052E-6	  -20.0109	    9.4480	    0.2217	  -57.0623	
 -180.0000	-3.4483E-6	-3.4460E-6	-3.4520E-6	-3.4550E-6	-3.4400E-6	-2.993235E-6	-2.983844E-6	-2.989978E-6	-2.991330E-6	-3.007789E-6	  -20.0135	    9.4456	    0.2163	  -57.2590	
 -190.0000	-3.5648E-6	-3.5640E-6	-3.5650E-6	-3.5670E-6	-3.5630E-6	-3.074681E-6	-3.073591E-6	-3.077599E-6	-3.076200E-6	-3.071333E-6	  -20.0084	    9.4801	    0.2043	  -57.6939	
 -200.0000	-3.6790E-6	-3.6830E-6	-3.6770E-6	-3.6760E-6	-3.6800E-6	-3.133170E-6	-3.128126E-6	-3.136999E-6	-3.128866E-6	-3.138688E-6	  -19.9982	    9.4585	    0.2081	  -57.5597	
 -210.0000	-3.7883E-6	-3.7790E-6	-3.7890E-6	-3.7940E-6	-3.7910E-6	-3.193495E-6	-3.199249E-6	-3.189116E-6	-3.195419E-6	-3.190195E-6	  -19.9855	    9.4295	    0.2119	  -57.4319	
 -220.0000	-3.8895E-6	-3.8950E-6	-3.8810E-6	-3.8920E-6	-3.8900E-6	-3.279644E-6	-3.272752E-6	-3.273943E-6	-3.288810E-6	-3.283073E-6	  -19.9779	    9.4543	    0.2125	  -57.3949	
 -230.0000	-3.9915E-6	-3.9920E-6	-3.9900E-6	-3.9930E-6	-3.9910E-6	-3.338904E-6	-3.344091E-6	-3.337567E-6	-3.342151E-6	-3.331806E-6	  -19.9804	    9.4612	    0.2065	  -57.6187	
 -240.0000	-4.0970E-6	-4.0950E-6	-4.1060E-6	-4.0910E-6	-4.0960E-6	-3.397092E-6	-3.396441E-6	-3.402489E-6	-3.392664E-6	-3.396774E-6	  -19.9906	    9.4169	    0.2113	  -57.4623	
 -250.0000	-4.1897E-6	-4.1940E-6	-4.1880E-6	-4.1900E-6	-4.1870E-6	-3.478493E-6	-3.475497E-6	-3.474871E-6	-3.478570E-6	-3.485033E-6	  -20.0109	    9.4243	    0.2157	  -57.2936	
 -260.0000	-4.2950E-6	-4.2900E-6	-4.3000E-6	-4.2990E-6	-4.2910E-6	-3.557359E-6	-3.559564E-6	-3.563088E-6	-3.555865E-6	-3.550918E-6	  -20.0008	    9.4209	    0.2122	  -57.4246	
 -270.0000	-4.3870E-6	-4.3880E-6	-4.3930E-6	-4.3920E-6	-4.3750E-6	-3.622429E-6	-3.615708E-6	-3.611295E-6	-3.626972E-6	-3.635741E-6	  -20.0084	    9.4503	    0.2122	  -57.4089	
 -280.0000	-4.4773E-6	-4.4790E-6	-4.4810E-6	-4.4740E-6	-4.4750E-6	-3.700046E-6	-3.705041E-6	-3.705193E-6	-3.692217E-6	-3.697735E-6	  -20.0084	    9.4264	    0.2113	  -57.4572	
 -290.0000	-4.5615E-6	-4.5550E-6	-4.5640E-6	-4.5710E-6	-4.5560E-6	-3.790722E-6	-3.781194E-6	-3.790868E-6	-3.790487E-6	-3.800340E-6	  -20.0135	    9.3614	    0.2103	  -57.5276	
 -300.0000	-4.6612E-6	-4.6650E-6	-4.6630E-6	-4.6640E-6	-4.6530E-6	-3.857515E-6	-3.859584E-6	-3.857053E-6	-3.865865E-6	-3.847558E-6	  -20.0033	    9.3505	    0.1961	  -58.0871	
 -310.0000	-4.7628E-6	-4.7600E-6	-4.7680E-6	-4.7570E-6	-4.7660E-6	-3.922581E-6	-3.939365E-6	-3.922128E-6	-3.914997E-6	-3.913832E-6	  -19.9957	    9.3352	    0.2062	  -57.6979	
 -320.0000	-4.8502E-6	-4.8400E-6	-4.8590E-6	-4.8520E-6	-4.8500E-6	-4.004024E-6	-4.007760E-6	-3.995398E-6	-4.008450E-6	-4.004489E-6	  -19.9957	    9.3696	    0.1980	  -58.0011	
 -330.0000	-4.9480E-6	-4.9510E-6	-4.9500E-6	-4.9520E-6	-4.9390E-6	-4.066104E-6	-4.061006E-6	-4.070040E-6	-4.065987E-6	-4.067382E-6	  -19.9906	    9.3793	    0.2097	  -57.5419	
 -340.0000	-5.0333E-6	-5.0320E-6	-5.0230E-6	-5.0380E-6	-5.0400E-6	-4.127659E-6	-4.127891E-6	-4.133543E-6	-4.123486E-6	-4.125715E-6	  -19.9982	    9.3537	    0.1980	  -58.0095	
 -350.0000	-5.1175E-6	-5.1220E-6	-5.1160E-6	-5.1180E-6	-5.1140E-6	-4.197860E-6	-4.202003E-6	-4.198616E-6	-4.187205E-6	-4.203615E-6	  -19.9982	    9.4015	    0.2056	  -57.6869	
 -360.0000	-5.2102E-6	-5.2110E-6	-5.2090E-6	-5.2110E-6	-5.2100E-6	-4.271173E-6	-4.283476E-6	-4.264331E-6	-4.274580E-6	-4.262304E-6	  -19.9982	    9.3813	    0.2018	  -57.8450	
 -370.0000	-5.2967E-6	-5.2990E-6	-5.3050E-6	-5.3000E-6	-5.2830E-6	-4.349952E-6	-4.357365E-6	-4.356678E-6	-4.360045E-6	-4.325719E-6	  -20.0084	    9.3176	    0.2011	  -57.9037	
 -380.0000	-5.3830E-6	-5.3850E-6	-5.3790E-6	-5.3830E-6	-5.3850E-6	-4.408233E-6	-4.406489E-6	-4.407320E-6	-4.409324E-6	-4.409798E-6	  -20.0186	    9.2941	    0.2065	  -57.7077	
 -390.0000	-5.4842E-6	-5.4770E-6	-5.4860E-6	-5.4860E-6	-5.4880E-6	-4.487982E-6	-4.486237E-6	-4.489167E-6	-4.493085E-6	-4.483441E-6	  -20.0109	    9.3474	    0.2008	  -57.9002	
 -400.0000	-5.5820E-6	-5.5860E-6	-5.5860E-6	-5.5780E-6	-5.5780E-6	-4.556454E-6	-4.555007E-6	-4.558121E-6	-4.555547E-6	-4.557141E-6	  -20.0109	    9.3354	    0.1948	  -58.1461	
 -410.0000	-5.6697E-6	-5.6740E-6	-5.6630E-6	-5.6720E-6	-5.6700E-6	-4.626075E-6	-4.621198E-6	-4.622575E-6	-4.620313E-6	-4.640215E-6	  -20.0084	    9.2824	    0.2109	  -57.5460	
 -420.0000	-5.7633E-6	-5.7600E-6	-5.7580E-6	-5.7670E-6	-5.7680E-6	-4.689850E-6	-4.699299E-6	-4.691080E-6	-4.680798E-6	-4.688222E-6	  -20.0008	    9.3456	    0.2068	  -57.6682	
 -430.0000	-5.8485E-6	-5.8490E-6	-5.8540E-6	-5.8450E-6	-5.8460E-6	-4.763662E-6	-4.758722E-6	-4.764314E-6	-4.760101E-6	-4.771511E-6	  -19.9982	    9.3380	    0.2078	  -57.6360	
 -440.0000	-5.9318E-6	-5.9290E-6	-5.9310E-6	-5.9350E-6	-5.9320E-6	-4.833164E-6	-4.835948E-6	-4.839997E-6	-4.819387E-6	-4.837324E-6	  -19.9880	    9.3237	    0.2043	  -57.7772	
 -450.0000	-6.0295E-6	-6.0360E-6	-6.0240E-6	-6.0220E-6	-6.0360E-6	-4.888443E-6	-4.884650E-6	-4.905906E-6	-4.881764E-6	-4.881452E-6	  -19.9779	    9.3277	    0.1989	  -57.9856	
 -460.0000	-6.0960E-6	-6.0910E-6	-6.1020E-6	-6.0990E-6	-6.0920E-6	-4.959927E-6	-4.947799E-6	-4.957603E-6	-4.964972E-6	-4.969335E-6	  -19.9855	    9.2838	    0.2049	  -57.7740	
 -470.0000	-6.1690E-6	-6.1560E-6	-6.1800E-6	-6.1660E-6	-6.1740E-6	-5.014300E-6	-5.025443E-6	-5.011826E-6	-5.019126E-6	-5.000803E-6	  -20.0008	    9.3095	    0.2037	  -57.8092	
 -480.0000	-6.2492E-6	-6.2500E-6	-6.2380E-6	-6.2500E-6	-6.2590E-6	-5.077239E-6	-5.080439E-6	-5.068833E-6	-5.075472E-6	-5.084212E-6	  -20.0008	    9.3078	    0.1935	  -58.2120	
 -490.0000	-6.3277E-6	-6.3310E-6	-6.3220E-6	-6.3360E-6	-6.3220E-6	-5.139341E-6	-5.146810E-6	-5.143303E-6	-5.141706E-6	-5.125546E-6	  -20.0033	    9.3075	    0.1986	  -58.0089	
 -500.0000	-6.4270E-6	-6.4290E-6	-6.4200E-6	-6.4310E-6	-6.4280E-6	-5.196791E-6	-5.211303E-6	-5.185588E-6	-5.195306E-6	-5.194968E-6	  -19.9957	    9.2824	    0.2043	  -57.7992	
 -510.0000	-6.4918E-6	-6.4900E-6	-6.4960E-6	-6.4980E-6	-6.4830E-6	-5.244079E-6	-5.255555E-6	-5.255761E-6	-5.238244E-6	-5.226757E-6	  -19.9880	    9.3192	    0.2005	  -57.9277	
 -520.0000	-6.5735E-6	-6.5780E-6	-6.5740E-6	-6.5590E-6	-6.5830E-6	-5.327775E-6	-5.322065E-6	-5.323716E-6	-5.337203E-6	-5.328117E-6	  -20.0008	    9.2973	    0.2068	  -57.6939	
 -530.0000	-6.6563E-6	-6.6560E-6	-6.6520E-6	-6.6560E-6	-6.6610E-6	-5.384582E-6	-5.395262E-6	-5.374609E-6	-5.390175E-6	-5.378283E-6	  -20.0084	    9.2452	    0.1932	  -58.2580	
 -540.0000	-6.7347E-6	-6.7210E-6	-6.7370E-6	-6.7520E-6	-6.7290E-6	-5.459680E-6	-5.452844E-6	-5.458317E-6	-5.465604E-6	-5.461954E-6	  -20.0033	    9.2829	    0.2030	  -57.8480	
 -550.0000	-6.8065E-6	-6.8230E-6	-6.8020E-6	-6.7930E-6	-6.8080E-6	-5.494777E-6	-5.494465E-6	-5.493867E-6	-5.492941E-6	-5.497835E-6	  -20.0059	    9.2390	    0.1954	  -58.1717	
 -560.0000	-6.8987E-6	-6.8990E-6	-6.9070E-6	-6.9040E-6	-6.8850E-6	-5.576025E-6	-5.553599E-6	-5.588637E-6	-5.582629E-6	-5.579235E-6	  -20.0160	    9.3098	    0.1977	  -58.0454	
 -570.0000	-6.9737E-6	-6.9750E-6	-6.9660E-6	-6.9750E-6	-6.9790E-6	-5.646466E-6	-5.634743E-6	-5.656819E-6	-5.656276E-6	-5.638026E-6	  -20.0186	    9.2528	    0.1977	  -58.0757	
 -580.0000	-7.0600E-6	-7.0560E-6	-7.0670E-6	-7.0730E-6	-7.0440E-6	-5.677574E-6	-5.667720E-6	-5.689526E-6	-5.679145E-6	-5.673904E-6	  -20.0084	    9.2432	    0.1926	  -58.2849	
 -590.0000	-7.1447E-6	-7.1400E-6	-7.1520E-6	-7.1430E-6	-7.1440E-6	-5.760045E-6	-5.794040E-6	-5.744072E-6	-5.747596E-6	-5.754473E-6	  -20.0109	    9.2290	    0.2015	  -57.9384	
 -600.0000	-7.2090E-6	-7.2150E-6	-7.2080E-6	-7.2090E-6	-7.2040E-6	-5.811874E-6	-5.798935E-6	-5.814186E-6	-5.801415E-6	-5.832958E-6	  -20.0008	    9.2178	    0.2037	  -57.8581	
 -610.0000	-7.2808E-6	-7.2760E-6	-7.2770E-6	-7.2810E-6	-7.2890E-6	-5.891468E-6	-5.900509E-6	-5.899060E-6	-5.873748E-6	-5.892555E-6	  -19.9982	    9.2403	    0.1967	  -58.1202	
 -620.0000	-7.3462E-6	-7.3570E-6	-7.3510E-6	-7.3380E-6	-7.3390E-6	-5.946211E-6	-5.953599E-6	-5.956805E-6	-5.940019E-6	-5.934420E-6	  -19.9931	    9.2218	    0.1882	  -58.4788	
 -630.0000	-7.4178E-6	-7.4340E-6	-7.4150E-6	-7.4240E-6	-7.3980E-6	-5.986391E-6	-5.984170E-6	-5.990846E-6	-5.988097E-6	-5.982450E-6	  -20.0008	    9.1916	    0.1989	  -58.0579	
 -640.0000	-7.4980E-6	-7.4840E-6	-7.4890E-6	-7.5020E-6	-7.5170E-6	-6.051109E-6	-6.050290E-6	-6.040053E-6	-6.064177E-6	-6.049915E-6	  -19.9880	    9.1786	    0.2015	  -57.9652	
 -650.0000	-7.5575E-6	-7.5410E-6	-7.5510E-6	-7.5750E-6	-7.5630E-6	-6.103922E-6	-6.105950E-6	-6.107770E-6	-6.104149E-6	-6.097821E-6	  -19.9982	    9.1785	    0.1926	  -58.3192	
 -660.0000	-7.6535E-6	-7.6700E-6	-7.6370E-6	-7.6580E-6	-7.6490E-6	-6.157742E-6	-6.145188E-6	-6.156929E-6	-6.154641E-6	-6.174209E-6	  -20.0008	    9.1774	    0.1999	  -58.0280	
 -670.0000	-7.7085E-6	-7.7110E-6	-7.7250E-6	-7.6980E-6	-7.7000E-6	-6.213890E-6	-6.207466E-6	-6.200119E-6	-6.235107E-6	-6.212869E-6	  -20.0084	    9.1594	    0.1841	  -58.6849	
 -680.0000	-7.7910E-6	-7.8050E-6	-7.7860E-6	-7.7840E-6	-7.7890E-6	-6.256668E-6	-6.261163E-6	-6.255591E-6	-6.260610E-6	-6.249306E-6	  -19.9982	    9.1556	    0.1980	  -58.1147	
 -690.0000	-7.8573E-6	-7.8640E-6	-7.8490E-6	-7.8630E-6	-7.8530E-6	-6.309470E-6	-6.306052E-6	-6.301892E-6	-6.312306E-6	-6.317630E-6	  -20.0033	    9.1842	    0.2049	  -57.8270	
 -700.0000	-7.9500E-6	-7.9450E-6	-7.9540E-6	-7.9530E-6	-7.9480E-6	-6.391519E-6	-6.389857E-6	-6.410681E-6	-6.388165E-6	-6.377373E-6	  -19.9931	    9.1531	    0.1980	  -58.1161	
 -710.0000	-8.0192E-6	-8.0300E-6	-8.0270E-6	-8.0120E-6	-8.0080E-6	-6.419403E-6	-6.415426E-6	-6.418169E-6	-6.414565E-6	-6.429453E-6	  -20.0008	    9.1695	    0.1939	  -58.2725	
 -720.0000	-8.0755E-6	-8.0900E-6	-8.0680E-6	-8.0710E-6	-8.0730E-6	-6.484554E-6	-6.466716E-6	-6.478136E-6	-6.486316E-6	-6.507049E-6	  -20.0059	    9.2201	    0.1951	  -58.1945	
 -730.0000	-8.1395E-6	-8.1370E-6	-8.1430E-6	-8.1300E-6	-8.1480E-6	-6.546377E-6	-6.532760E-6	-6.546962E-6	-6.536517E-6	-6.569268E-6	  -20.0033	    9.2191	    0.1904	  -58.3885	
 -740.0000	-8.2213E-6	-8.2170E-6	-8.2320E-6	-8.2090E-6	-8.2270E-6	-6.590821E-6	-6.591830E-6	-6.590920E-6	-6.600528E-6	-6.580005E-6	  -19.9982	    9.2139	    0.1973	  -58.1090	
 -750.0000	-8.2753E-6	-8.2790E-6	-8.2690E-6	-8.2870E-6	-8.2660E-6	-6.637068E-6	-6.644025E-6	-6.645269E-6	-6.638612E-6	-6.620367E-6	  -20.0084	    9.1585	    0.1945	  -58.2527	
 -760.0000	-8.3518E-6	-8.3510E-6	-8.3480E-6	-8.3550E-6	-8.3530E-6	-6.688285E-6	-6.679389E-6	-6.697367E-6	-6.688184E-6	-6.688199E-6	  -19.9957	    9.1816	    0.2027	  -57.9142	
 -770.0000	-8.4298E-6	-8.4280E-6	-8.4480E-6	-8.4230E-6	-8.4200E-6	-6.757529E-6	-6.755267E-6	-6.777964E-6	-6.750658E-6	-6.746228E-6	  -20.0008	    9.1570	    0.1923	  -58.3435	
 -780.0000	-8.5073E-6	-8.5010E-6	-8.5040E-6	-8.5120E-6	-8.5120E-6	-6.806063E-6	-6.790755E-6	-6.816832E-6	-6.783069E-6	-6.833596E-6	  -20.0084	    9.1660	    0.1875	  -58.5347	
 -790.0000	-8.5813E-6	-8.5870E-6	-8.5760E-6	-8.5980E-6	-8.5640E-6	-6.847568E-6	-6.842890E-6	-6.870686E-6	-6.834643E-6	-6.842055E-6	  -20.0033	    9.1763	    0.1898	  -58.4372	
 -800.0000	-8.6410E-6	-8.6530E-6	-8.6420E-6	-8.6440E-6	-8.6250E-6	-6.886810E-6	-6.894714E-6	-6.875862E-6	-6.885836E-6	-6.890829E-6	  -20.0008	    9.1330	    0.2008	  -58.0142	
 -810.0000	-8.7192E-6	-8.7310E-6	-8.6980E-6	-8.7330E-6	-8.7150E-6	-6.948511E-6	-6.948186E-6	-6.957221E-6	-6.938408E-6	-6.950230E-6	  -20.0033	    9.1278	    0.1945	  -58.2690	
 -820.0000	-8.7838E-6	-8.7930E-6	-8.7990E-6	-8.7630E-6	-8.7800E-6	-6.996773E-6	-7.008846E-6	-6.982992E-6	-6.970446E-6	-7.024810E-6	  -20.0059	    9.1100	    0.1951	  -58.2529	
 -830.0000	-8.8385E-6	-8.8350E-6	-8.8310E-6	-8.8230E-6	-8.8650E-6	-7.046185E-6	-7.029032E-6	-7.042187E-6	-7.065023E-6	-7.048496E-6	  -20.0059	    9.1191	    0.1942	  -58.2864	
 -840.0000	-8.9132E-6	-8.9360E-6	-8.9100E-6	-8.9020E-6	-8.9050E-6	-7.102852E-6	-7.145193E-6	-7.108098E-6	-7.082973E-6	-7.075143E-6	  -20.0059	    9.1089	    0.1948	  -58.2662	
 -850.0000	-8.9970E-6	-9.0000E-6	-8.9930E-6	-8.9900E-6	-9.0050E-6	-7.151804E-6	-7.156088E-6	-7.167756E-6	-7.138019E-6	-7.145354E-6	  -19.9931	    9.1361	    0.1882	  -58.5241	
 -860.0000	-9.0773E-6	-9.0910E-6	-9.0850E-6	-9.0670E-6	-9.0660E-6	-7.191604E-6	-7.181377E-6	-7.205198E-6	-7.190965E-6	-7.188875E-6	  -19.9931	    9.1321	    0.1961	  -58.2030	
 -870.0000	-9.1325E-6	-9.1350E-6	-9.1260E-6	-9.1400E-6	-9.1290E-6	-7.243814E-6	-7.235249E-6	-7.248408E-6	-7.244512E-6	-7.247088E-6	  -20.0135	    9.1269	    0.1879	  -58.5422	
 -880.0000	-9.2037E-6	-9.2060E-6	-9.2030E-6	-9.2040E-6	-9.2020E-6	-7.301342E-6	-7.301085E-6	-7.316175E-6	-7.288853E-6	-7.299253E-6	  -20.0059	    9.1210	    0.1958	  -58.2216	
 -890.0000	-9.2728E-6	-9.2850E-6	-9.2620E-6	-9.2820E-6	-9.2620E-6	-7.340043E-6	-7.345897E-6	-7.322210E-6	-7.336123E-6	-7.355941E-6	  -20.0008	    9.0860	    0.1913	  -58.4199	
 -900.0000	-9.3433E-6	-9.3400E-6	-9.3360E-6	-9.3510E-6	-9.3460E-6	-7.399807E-6	-7.382116E-6	-7.407520E-6	-7.411626E-6	-7.397965E-6	  -20.0008	    9.1126	    0.1841	  -58.7096	
 -910.0000	-9.4283E-6	-9.4290E-6	-9.4230E-6	-9.4150E-6	-9.4460E-6	-7.444958E-6	-7.441296E-6	-7.443060E-6	-7.439403E-6	-7.456072E-6	  -20.0008	    9.1180	    0.1964	  -58.1978	
 -920.0000	-9.4885E-6	-9.4770E-6	-9.4940E-6	-9.4880E-6	-9.4950E-6	-7.481976E-6	-7.476562E-6	-7.468200E-6	-7.480771E-6	-7.502371E-6	  -20.0008	    9.0873	    0.1923	  -58.3804	
 -930.0000	-9.5393E-6	-9.5340E-6	-9.5170E-6	-9.5490E-6	-9.5570E-6	-7.538825E-6	-7.540628E-6	-7.540336E-6	-7.542420E-6	-7.531914E-6	  -19.9855	    9.1255	    0.2030	  -57.9317	
 -940.0000	-9.6230E-6	-9.6080E-6	-9.6330E-6	-9.6360E-6	-9.6150E-6	-7.585292E-6	-7.585206E-6	-7.591290E-6	-7.585590E-6	-7.579080E-6	  -19.9804	    9.1256	    0.1875	  -58.5561	
 -950.0000	-9.6802E-6	-9.7000E-6	-9.7040E-6	-9.6590E-6	-9.6580E-6	-7.644314E-6	-7.627799E-6	-7.643073E-6	-7.652203E-6	-7.654181E-6	  -19.9830	    9.1451	    0.1977	  -58.1329	
 -960.0000	-9.7843E-6	-9.7350E-6	-9.7520E-6	-9.7940E-6	-9.8560E-6	-7.653233E-6	-7.656849E-6	-7.670218E-6	-7.646939E-6	-7.638926E-6	  -19.9906	    9.0976	    0.1992	  -58.0953	
 -970.0000	-9.9868E-6	-1.0003E-5	-9.9920E-6	-9.9890E-6	-9.9630E-6	-7.666562E-6	-7.669708E-6	-7.651093E-6	-7.664311E-6	-7.681138E-6	  -20.0008	    9.1137	    0.1954	  -58.2382	
 -980.0000	-1.0043E-5	-1.0040E-5	-1.0040E-5	-1.0040E-5	-1.0050E-5	-7.714713E-6	-7.707488E-6	-7.717138E-6	-7.715934E-6	-7.718294E-6	  -20.0008	    9.0613	    0.2037	  -57.9414	
 -990.0000	-1.0132E-5	-1.0130E-5	-1.0150E-5	-1.0140E-5	-1.0110E-5	-7.728102E-6	-7.725423E-6	-7.713614E-6	-7.726911E-6	-7.746459E-6	  -20.0135	    9.0883	    0.1882	  -58.5494	
-1000.0000	-1.0215E-5	-1.0220E-5	-1.0210E-5	-1.0210E-5	-1.0220E-5	-7.776050E-6	-7.795311E-6	-7.777415E-6	-7.765309E-6	-7.766167E-6	  -20.0135	    9.0920	    0.1831	  -58.7609	
